Folder: my_diss/bruster/modeling/kesterite_M_serie/materials/techn_xrd/M413

Note: README.md
# my_diss
My dissertation

File: M413_Theta0,25_140-3356.xy
10.0100 165.0
10.1900 160.0
10.3700 165.0
10.5500 188.0
10.7300 175.0
10.9100 151.0
11.0900 154.0
11.2700 153.0
11.4500 157.0
11.6300 128.0
11.8100 160.0
11.9900 134.0
12.1700 158.0
12.3500 131.0
12.5300 146.0
12.7100 124.0
12.8900 132.0
13.0700 133.0
13.2500 137.0
13.4300 112.0
13.6100 115.0
13.7900 124.0
13.9700 107.0
14.1500 117.0
14.3300 109.0
14.5100 113.0
14.6900 105.0
14.8700 103.0
15.0500 90.0
15.2300 111.0
15.4100 105.0
15.5900 106.0
15.7700 112.0
15.9500 112.0
16.1300 97.0
16.3100 82.0
16.4900 97.0
16.6700 92.0
16.8500 97.0
17.0300 93.0
17.2100 67.0
17.3900 95.0
17.5700 89.0
17.7500 92.0
17.9300 62.0
18.1100 78.0
18.2900 80.0
18.4700 97.0
18.6500 75.0
18.8300 83.0
19.0100 84.0
19.1900 77.0
19.3700 83.0
19.5500 99.0
19.7300 65.0
19.9100 65.0
20.0900 59.0
20.2700 78.0
20.4500 55.0
20.6300 73.0
20.8100 81.0
20.9900 76.0
21.1700 66.0
21.3500 75.0
21.5300 58.0
21.7100 67.0
21.8900 67.0
22.0700 67.0
22.2500 61.0
22.4300 88.0
22.6100 66.0
22.7900 70.0
22.9700 63.0
23.1500 54.0
23.3300 67.0
23.5100 58.0
23.6900 61.0
23.8700 60.0
24.0500 57.0
24.2300 54.0
24.4100 59.0
24.5900 51.0
24.7700 60.0
24.9500 72.0
25.1300 65.0
25.3100 54.0
25.4900 66.0
25.6700 66.0
25.8500 54.0
26.0300 51.0
26.2100 63.0
26.3900 50.0
26.5700 51.0
26.7500 45.0
26.9300 44.0
27.1100 55.0
27.2900 53.0
27.4700 50.0
27.6500 46.0
27.8300 69.0
28.0100 47.0
28.1900 47.0
28.3700 63.0
28.5500 57.0
28.7300 56.0
28.9100 48.0
29.0900 50.0
29.2700 51.0
29.4500 50.0
29.6300 35.0
29.8100 55.0
29.9900 54.0
30.1700 46.0
30.3500 51.0
30.5300 41.0
30.7100 44.0
30.8900 47.0
31.0700 41.0
31.2500 35.0
31.4300 47.0
31.6100 50.0
31.7900 31.0
31.9700 46.0
32.1500 40.0
32.3300 46.0
32.5100 44.0
32.6900 45.0
32.8700 45.0
33.0500 47.0
33.2300 43.0
33.4100 44.0
33.5900 35.0
33.7700 33.0
33.9500 33.0
34.1300 45.0
34.3100 26.0
34.4900 17.0
34.6700 28.0
34.8500 31.0
35.0300 33.0
35.2100 35.0
35.3900 30.0
35.5700 26.0
35.7500 32.0
35.9300 30.0
36.1100 38.0
36.2900 31.0
36.4700 37.0
36.6500 29.0
36.8300 34.0
37.0100 30.0
37.1900 20.0
37.3700 33.0
37.5500 26.0
37.7300 29.0
37.9100 22.0
38.0900 30.0
38.2700 30.0
38.4500 26.0
38.6300 24.0
38.8100 39.0
38.9900 23.0
39.1700 27.0
39.3500 27.0
39.5300 25.0
39.7100 27.0
39.8900 34.0
40.0700 25.0
40.2500 27.0
40.4300 36.0
40.6100 26.0
40.7900 33.0
40.9700 32.0
41.1500 31.0
41.3300 27.0
41.5100 24.0
41.6900 19.0
41.8700 31.0
42.0500 27.0
42.2300 28.0
42.4100 27.0
42.5900 26.0
42.7700 32.0
42.9500 31.0
43.1300 33.0
43.3100 30.0
43.4900 30.0
43.6700 25.0
43.8500 26.0
44.0300 20.0
44.2100 26.0
44.3900 26.0
44.5700 25.0
44.7500 24.0
44.9300 21.0
45.1100 29.0
45.2900 26.0
45.4700 32.0
45.6500 21.0
45.8300 29.0
46.0100 30.0
46.1900 17.0
46.3700 22.0
46.5500 22.0
46.7300 27.0
46.9100 17.0
47.0900 25.0
47.2700 40.0
47.4500 39.0
47.6300 23.0
47.8100 19.0
47.9900 33.0
48.1700 33.0
48.3500 15.0
48.5300 23.0
48.7100 25.0
48.8900 18.0
49.0700 21.0
49.2500 22.0
49.4300 21.0
49.6100 28.0
49.7900 24.0
49.9700 22.0
50.1500 23.0
50.3300 26.0
50.5100 28.0
50.6900 23.0
50.8700 18.0
51.0500 14.0
51.2300 23.0
51.4100 25.0
51.5900 23.0
51.7700 16.0
51.9500 13.0
52.1300 23.0
52.3100 25.0
52.4900 25.0
52.6700 20.0
52.8500 26.0
53.0300 23.0
53.2100 19.0
53.3900 18.0
53.5700 9.0
53.7500 13.0
53.9300 12.0
54.1100 23.0
54.2900 17.0
54.4700 22.0
54.6500 15.0
54.8300 14.0
55.0100 21.0
55.1900 15.0
55.3700 18.0
55.5500 24.0
55.7300 20.0
55.9100 21.0
56.0900 24.0
56.2700 16.0
56.4500 22.0
56.6300 20.0
56.8100 21.0
56.9900 21.0
57.1700 14.0
57.3500 26.0
57.5300 15.0
57.7100 29.0
57.8900 18.0
58.0700 25.0
58.2500 17.0
58.4300 21.0
58.6100 24.0
58.7900 22.0
58.9700 19.0
59.1500 22.0
59.3300 19.0
59.5100 14.0
59.6900 13.0
59.8700 17.0
59.9900 14.0