Folder: my_diss/bruster/kesterite_M_serie/xrd/M413

Note: README.md
# my_diss
My dissertation

File: M413_Theta2_140-3356.xy
10.0100 184.0
10.1900 174.0
10.3700 149.0
10.5500 162.0
10.7300 147.0
10.9100 155.0
11.0900 140.0
11.2700 155.0
11.4500 146.0
11.6300 149.0
11.8100 140.0
11.9900 150.0
12.1700 129.0
12.3500 144.0
12.5300 148.0
12.7100 130.0
12.8900 139.0
13.0700 106.0
13.2500 133.0
13.4300 141.0
13.6100 127.0
13.7900 155.0
13.9700 153.0
14.1500 118.0
14.3300 119.0
14.5100 127.0
14.6900 121.0
14.8700 111.0
15.0500 92.0
15.2300 98.0
15.4100 142.0
15.5900 105.0
15.7700 119.0
15.9500 92.0
16.1300 140.0
16.3100 166.0
16.4900 114.0
16.6700 105.0
16.8500 82.0
17.0300 99.0
17.2100 82.0
17.3900 82.0
17.5700 80.0
17.7500 88.0
17.9300 102.0
18.1100 217.0
18.2900 442.0
18.4700 139.0
18.6500 83.0
18.8300 80.0
19.0100 83.0
19.1900 78.0
19.3700 99.0
19.5500 63.0
19.7300 82.0
19.9100 87.0
20.0900 80.0
20.2700 82.0
20.4500 53.0
20.6300 61.0
20.8100 74.0
20.9900 86.0
21.1700 75.0
21.3500 77.0
21.5300 72.0
21.7100 70.0
21.8900 58.0
22.0700 85.0
22.2500 69.0
22.4300 77.0
22.6100 75.0
22.7900 78.0
22.9700 77.0
23.1500 185.0
23.3300 76.0
23.5100 79.0
23.6900 83.0
23.8700 81.0
24.0500 65.0
24.2300 63.0
24.4100 66.0
24.5900 62.0
24.7700 56.0
24.9500 74.0
25.1300 48.0
25.3100 72.0
25.4900 65.0
25.6700 57.0
25.8500 90.0
26.0300 56.0
26.2100 70.0
26.3900 90.0
26.5700 76.0
26.7500 82.0
26.9300 81.0
27.1100 78.0
27.2900 88.0
27.4700 78.0
27.6500 99.0
27.8300 195.0
28.0100 168.0
28.1900 276.0
28.3700 2782.0
28.5500 5044.0
28.7300 667.0
28.9100 189.0
29.0900 96.0
29.2700 94.0
29.4500 114.0
29.6300 171.0
29.8100 172.0
29.9900 84.0
30.1700 72.0
30.3500 92.0
30.5300 61.0
30.7100 65.0
30.8900 78.0
31.0700 73.0
31.2500 55.0
31.4300 60.0
31.6100 72.0
31.7900 66.0
31.9700 73.0
32.1500 111.0
32.3300 148.0
32.5100 92.0
32.6900 105.0
32.8700 329.0
33.0500 561.0
33.2300 209.0
33.4100 104.0
33.5900 64.0
33.7700 70.0
33.9500 63.0
34.1300 69.0
34.3100 67.0
34.4900 59.0
34.6700 69.0
34.8500 65.0
35.0300 66.0
35.2100 56.0
35.3900 52.0
35.5700 69.0
35.7500 56.0
35.9300 63.0
36.1100 56.0
36.2900 56.0
36.4700 49.0
36.6500 59.0
36.8300 74.0
37.0100 120.0
37.1900 97.0
37.3700 73.0
37.5500 69.0
37.7300 76.0
37.9100 197.0
38.0900 151.0
38.2700 65.0
38.4500 45.0
38.6300 42.0
38.8100 42.0
38.9900 38.0
39.1700 43.0
39.3500 55.0
39.5300 30.0
39.7100 48.0
39.8900 45.0
40.0700 59.0
40.2500 53.0
40.4300 67.0
40.6100 95.0
40.7900 84.0
40.9700 52.0
41.1500 46.0
41.3300 57.0
41.5100 60.0
41.6900 48.0
41.8700 60.0
42.0500 41.0
42.2300 40.0
42.4100 41.0
42.5900 47.0
42.7700 38.0
42.9500 48.0
43.1300 35.0
43.3100 39.0
43.4900 42.0
43.6700 38.0
43.8500 42.0
44.0300 41.0
44.2100 50.0
44.3900 52.0
44.5700 44.0
44.7500 55.0
44.9300 135.0
45.1100 116.0
45.2900 56.0
45.4700 46.0
45.6500 48.0
45.8300 55.0
46.0100 51.0
46.1900 213.0
46.3700 280.0
46.5500 126.0
46.7300 77.0
46.9100 86.0
47.0900 201.0
47.2700 1511.0
47.4500 2051.0
47.6300 552.0
47.8100 127.0
47.9900 79.0
48.1700 72.0
48.3500 64.0
48.5300 46.0
48.7100 47.0
48.8900 39.0
49.0700 46.0
49.2500 42.0
49.4300 42.0
49.6100 54.0
49.7900 45.0
49.9700 48.0
50.1500 47.0
50.3300 48.0
50.5100 48.0
50.6900 56.0
50.8700 46.0
51.0500 60.0
51.2300 63.0
51.4100 60.0
51.5900 40.0
51.7700 41.0
51.9500 49.0
52.1300 46.0
52.3100 38.0
52.4900 43.0
52.6700 34.0
52.8500 42.0
53.0300 49.0
53.2100 50.0
53.3900 52.0
53.5700 44.0
53.7500 44.0
53.9300 41.0
54.1100 40.0
54.2900 32.0
54.4700 53.0
54.6500 50.0
54.8300 71.0
55.0100 77.0
55.1900 49.0
55.3700 44.0
55.5500 40.0
55.7300 61.0
55.9100 126.0
56.0900 848.0
56.2700 1154.0
56.4500 503.0
56.6300 123.0
56.8100 88.0
56.9900 73.0
57.1700 49.0
57.3500 33.0
57.5300 50.0
57.7100 34.0
57.8900 43.0
58.0700 37.0
58.2500 33.0
58.4300 36.0
58.6100 36.0
58.7900 84.0
58.9700 143.0
59.1500 71.0
59.3300 29.0
59.5100 35.0
59.6900 30.0
59.8700 40.0
59.9900 22.0